AX,AY,AZ,GPS_Lat,GPS_Long,GX,GY,GZ
0.01877527,0.019041585,-0.0049268436,33.8123335,-84.2929108,-0.13893776,5.847962,7.9050794
0.00519316,-0.008122634,-0.002396843,33.8123335,-84.2929108,-0.13115245,5.857544,7.896096
0.008655266,-0.0061252653,0.0035952644,33.8123335,-84.2929108,-0.11138975,5.8683233,7.8565707
-0.015180005,0.0010652635,0.012383688,33.8123335,-84.2929108,-0.110192016,5.80664,7.9080734
-0.05499423,0.015446321,0.018908428,33.8123335,-84.2929108,-0.08923157,5.5652957,8.033237
-0.36871433,-0.09880319,0.11118688,33.8123335,-84.2929108,0.96298236,4.023805,9.1028185
6.66E-04,-0.011717899,0.052863702,33.8123335,-84.2929108,0.31021446,4.3010817,9.289067
-0.05552686,-0.032091063,0.12676635,33.8123335,-84.2929108,0.13594341,3.3021672,9.5364
0.007190529,-0.14421006,0.4428833,33.8123335,-84.2929108,1.0576038,2.8655913,8.762661
-0.14128058,0.92052084,2.5564992,33.8123335,-84.2929108,0.978553,0.123367146,10.964106
0.43103224,-0.3545996,-0.8661924,33.8123335,-84.2929108,1.7019875,3.0350714,7.1001983
-0.52024806,0.32210904,0.07137266,33.8123335,-84.2929108,1.1869596,2.406258,9.296852
-0.031957906,1.105344,1.1446257,33.8123335,-84.2929108,-0.06887001,2.5799303,9.673541
0.055793177,-0.3523359,-0.25153536,33.8123335,-84.2929108,2.3343937,0.6887001,9.788525
-0.54621387,-0.75327444,-3.4180312,33.8123335,-84.2929108,-0.3671071,1.804993,7.80387
0.25952482,-0.13129373,1.4985595,33.8123335,-84.2929108,3.2267096,1.4295018,7.2960286
-0.5067991,0.61825234,0.2063948,33.8123335,-84.2929108,-2.7991166,3.6369352,11.461766
-0.20346533,-0.007989476,1.6213311,33.8123335,-84.2929108,-0.15810159,1.7684621,8.459034
-0.59761286,0.544616,-0.150069,33.8123335,-84.2929108,-0.053299397,1.2576262,11.633641
0.59561545,-0.15712637,-0.8579366,33.8123335,-84.2929108,-1.7648689,3.128495,9.053112
0.097604774,0.9367661,1.6531558,33.8123335,-84.2929108,2.6709585,-0.12935585,10.577235
0.17377111,-0.12769847,-0.47004753,33.8123335,-84.2929108,0.8875248,1.5211289,9.465734
0.024367902,-0.10905635,-0.46844962,33.8123335,-84.2929108,0.09761575,2.430812,9.281281
-0.047404226,0.009454214,0.0038615803,33.8123335,-84.2929108,0.74798816,2.0822697,9.65318
-0.0029294747,-0.030759484,-0.027963167,33.8123335,-84.2929108,0.2227795,2.4960887,9.568739
0.0033289485,-0.017576847,0.17164059,33.8123335,-84.2929108,0.75517464,2.3918853,9.688513
0.1139832,0.101732664,0.024234746,33.8123335,-84.2929108,0.64857584,2.3206198,9.683124
0.034754224,-0.013049478,-0.070041075,33.8123335,-84.2929108,0.5401804,2.2679193,9.588502
-0.02197106,0.0139815835,0.015313163,33.8123335,-84.2929108,1.0516151,2.0313659,9.216603
-0.37510592,0.053263176,-0.5803023,33.8123335,-84.2929108,-0.21738967,1.8043942,9.766965
-0.024367902,0.006391581,0.049534753,33.8123335,-84.2929108,-0.04970618,2.0325634,9.665157
-0.18735322,0.12037478,0.5625923,33.8123335,-84.2929108,0.15450837,2.173298,9.454355
0.124502674,0.104262665,0.06404897,33.8123335,-84.2929108,0.42759293,3.2961786,9.40405
0.19387797,-0.18735322,0.0940095,33.8123335,-84.2929108,0.8390164,2.3373883,8.918366
0.22330587,-0.1953427,-0.08562055,33.8123335,-84.2929108,1.4199198,2.701501,9.025564
-0.23715429,-0.29494485,-0.557266,33.8123335,-84.2929108,-0.50604486,2.6104727,9.505857
-0.30919275,0.0030626326,-0.20932429,33.8123335,-84.2929108,0.32578507,2.5925066,9.092638
-0.2045306,0.15326479,0.13315794,33.8123335,-84.2929108,1.0222704,2.0427444,9.716061
0.35633066,0.11211899,0.04394212,33.8123335,-84.2929108,0.41681325,3.0117154,8.753078
-0.21904482,0.14647374,-0.13022846,33.8123335,-84.2929108,-0.41381893,2.6733541,9.4525585
-0.23568955,0.06657897,0.0018642112,33.8123335,-84.2929108,-2.6499982,3.3686416,8.641689
-1.4704632,0.11851057,0.478037,33.8123335,-84.2929108,0.87614626,0.9210615,9.969982
-0.049534753,-0.127299,-1.8723338,33.8123335,-84.2929108,-3.3141446,1.5588577,9.794513
0.13142689,-0.02783001,0.68270075,33.8123335,-84.2929108,0.040723134,2.1649137,9.544186
-0.037816856,0.20160112,1.2888358,33.8123335,-84.2929108,1.55227,1.3330839,9.994535
-0.10745846,-0.049934227,-0.4347607,33.8123335,-84.2929108,1.042632,1.2785866,9.263315
0.17723322,-0.23875219,-0.92331713,33.8123335,-84.2929108,-1.5600554,2.554179,9.70588
0.3701791,0.5277049,1.8323864,33.8123335,-84.2929108,2.4817157,1.1109031,9.592694
0.012383688,-0.08681898,-0.43662488,33.8123335,-84.2929108,0.48268893,2.066699,8.960886
-0.009587372,-0.05685844,-0.35633066,33.8123335,-84.2929108,-0.9210615,2.881162,9.781338
-0.51998174,0.09480845,0.074035816,33.8123335,-84.2929108,-1.3666205,1.6570723,10.965902
0.60986334,-0.17150743,0.69628286,33.8123335,-84.2929108,0.3473444,2.3954785,8.68361
0.017576847,0.23409165,1.1952257,33.8123335,-84.2929108,1.5690384,0.8611745,9.4064455
0.023568956,-0.41585225,-1.2117373,33.8123335,-84.2929108,0.62821424,1.8948236,9.629824
0.22237375,-0.115581095,-1.0483525,33.8123335,-84.2929108,-2.0361567,3.4470937,9.603474
-0.11757846,0.46671858,1.6712654,33.8123335,-84.2929108,1.3121234,1.3672193,9.623835
-0.027696852,-0.023169482,-0.14234585,33.8123335,-84.2929108,0.3808811,1.809784,9.037541
-0.077364765,-0.14141373,-1.5811174,33.8123335,-84.2929108,-1.2983494,2.1259873,9.317214
0.3884217,-0.18389112,-0.27057692,33.8123335,-84.2929108,-1.1432421,3.5201557,8.509338
-0.38775593,0.3079943,1.2836425,33.8123335,-84.2929108,0.57072276,1.3282928,9.8358345
0.009587372,-0.1484711,-0.44048646,33.8123335,-84.2929108,0.4737059,1.7253435,9.242954
-0.24580956,-0.085087925,-0.92930925,33.8123335,-84.2929108,-1.2731968,1.2989483,10.293371
0.19267954,0.0503337,0.07137266,33.8123335,-84.2929108,-1.5319085,2.5805292,9.306434
-0.2776343,0.3238401,1.3836441,33.8123335,-84.2929108,-0.026949134,1.0989258,9.392672
-0.17843165,-0.07177213,-0.18415743,33.8123335,-84.2929108,-0.15510723,0.9623835,9.715462
0.019307902,-0.0620516,-0.8567382,33.8123335,-84.2929108,-0.78931016,1.6846203,9.816072
0.15060163,-0.14447637,-0.49428228,33.8123335,-84.2929108,-1.3756036,2.5655575,9.2615185
-0.26298693,0.31558433,0.97311825,33.8123335,-84.2929108,0.123966016,0.822248,10.056219
0.037950013,-0.049401596,-0.09494161,33.8123335,-84.2929108,-0.88872254,1.7241457,9.6310215
-0.096140034,0.18229322,0.59881127,33.8123335,-84.2929108,5.99E-04,0.7018752,10.016094
0.19241323,-0.19374481,-0.9364998,33.8123335,-84.2929108,-1.0366434,2.2259984,9.17049
0.19427744,-0.18202691,-0.6021402,33.8123335,-84.2929108,-1.0294569,2.9362578,9.023767
-0.0956074,0.048868965,0.27284062,33.8123335,-84.2929108,-0.78032714,2.488902,9.27649
-0.30506483,0.4175833,1.2339746,33.8123335,-84.2929108,-0.8186548,1.346259,9.85979
-0.21678112,0.011185267,0.7998797,33.8123335,-84.2929108,0.010180783,0.94501626,9.960999
0.36738276,-0.42783648,-1.0914956,33.8123335,-84.2929108,-0.15331063,2.6452072,9.388479
0.15939006,-0.082957394,-0.44061962,33.8123335,-84.2929108,-0.8881237,1.6109593,9.422615
-0.0025300009,-0.21571587,-0.29933906,33.8123335,-84.2929108,-1.4726205,1.5241232,10.412546
0.17150743,0.099868454,-0.42743698,33.8123335,-84.2929108,-0.7252311,2.319422,8.733914
-0.17470321,-0.068176866,0.46099278,33.8123335,-84.2929108,-2.7739642,0.5341917,11.44919
-0.019973692,0.59534913,2.0795276,33.8123335,-84.2929108,1.0629936,2.3260098,8.558446
-0.094275825,-0.14713952,0.07896266,33.8123335,-84.2929108,1.0276603,-0.74978477,10.07658
-0.4568649,-0.6632597,-2.6545036,33.8123335,-84.2929108,-3.0728002,1.6474904,8.181757
0.028362641,0.45500067,0.84701765,33.8123335,-84.2929108,-1.1282704,-0.98334396,10.450275
0.015712637,0.91839033,3.5193644,33.8123335,-84.2929108,1.9654901,-0.7324176,9.692106
0.09773793,0.30852696,1.1687273,33.8123335,-84.2929108,1.300146,1.24505,11.7174835
0.23062955,-1.4941653,0.28855327,33.8123335,-84.2929108,1.0444286,1.9624958,11.27971
1.0772477,1.6125426,-0.78882766,33.8123335,-84.2929108,0.04910731,5.888685,6.5899615
-0.07749792,-0.5282375,-0.2688459,33.8123335,-84.2929108,0.99352473,4.0549464,10.021484
-0.3764375,-0.17616795,0.017044216,33.7551173,-84.3877951,-0.35632744,4.064528,9.248343
-0.6221139,-0.08815055,-0.41745013,33.7551173,-84.3877951,-0.5150279,2.4278176,10.6215515
0.002130527,-0.6428865,-0.38709015,33.7551173,-84.3877951,-0.12755923,-0.29464385,0.14253098
-0.422377,0.54088753,-2.6559682,33.7551173,-84.3877951,-3.4423027,1.672044,21.209566
0.018375795,0.037284225,0.0636495,33.7551173,-84.3877951,0.58329904,2.3829024,9.457349
0.024367902,0.1440769,7.99E-04,33.7551173,-84.3877951,-0.15331063,3.9902685,13.415278
0.0049268436,-0.16564848,0.053529494,33.7551173,-84.3877951,1.6732417,2.200247,9.077067
-0.038882118,0.62730706,0.15885742,33.7551173,-84.3877951,-1.153423,2.0319648,5.751544
0.027563693,0.157659,0.023835272,33.7551173,-84.3877951,-0.08204514,0.20601116,0.42819178
-0.5832318,-0.3435475,-0.45420173,33.7551173,-84.3877951,-2.4008684,3.7123928,18.191862
-0.30320063,1.9650117,0.16751269,33.7551173,-84.3877951,0.5114347,2.2313883,9.49927
-0.004261054,-0.05366265,0.0013315794,33.7551173,-84.3877951,0.8557847,2.2206087,11.925291
-0.58735967,-0.44141856,-0.0077231606,33.7551173,-84.3877951,3.8567204,-0.079649664,9.708276
-0.03954791,1.5100111,-0.37310854,33.7551173,-84.3877951,-1.0108919,0.50903916,5.94977
0.45699805,-0.0284958,-0.028096326,33.7551173,-84.3877951,-2.0828686,1.5732305,5.116143
-0.26924536,0.3548659,-0.6386255,33.7551173,-84.3877951,0.07186436,0.046112962,0.7156492
2.842922,-1.3839104,0.24447797,33.7551173,-84.3877951,0.25451958,2.9500318,11.767189
0.0010652635,0.004261054,0.0011984215,33.7551173,-84.3877951,0.08503949,2.5667553,9.728638
-0.84235716,-0.45646542,0.7309039,33.7551173,-84.3877951,3.233896,0.5599431,12.536139
-0.11771162,0.5784381,-0.6126597,33.7551173,-84.3877951,0.055694874,-0.15630497,7.4229894
0.89681876,0.43396172,0.26098958,33.7551173,-84.3877951,-2.5913088,1.2270839,6.6408653
-0.3881554,-0.1206411,-0.31451905,33.7551173,-84.3877951,0.08324288,0.05030505,0.39106187
1.755288,-1.0113345,-0.3194459,33.7551173,-84.3877951,-0.06647453,0.77793163,3.1955683
0.08002792,0.04074633,0.003994738,33.7551173,-84.3877951,0.25511846,2.5715463,9.199237
-1.1302446,-0.12436952,0.5560676,33.7551173,-84.3877951,2.2092302,-0.029344613,13.106262
-0.20679428,0.3058638,-0.38203013,33.7551173,-84.3877951,0.65037245,0.7707452,10.424523
0.32597065,1.1323751,0.5587307,33.7551173,-84.3877951,-1.5546656,0.739604,3.808212
-0.52663964,-0.18162744,0.006524739,33.7551173,-84.3877951,0.04850844,0.058689225,0.15510723
-0.62451077,-0.9877656,-0.56778544,33.7551173,-84.3877951,3.348879,0.04910731,20.250776
-0.008255793,0.13422321,0.0026631588,33.7551173,-84.3877951,0.7300221,2.1092188,9.49388
-0.0077231606,-0.039681066,9.32E-04,33.7551173,-84.3877951,1.1743834,2.3715239,11.636636
-0.4768386,-0.348208,-1.320261,33.7551173,-84.3877951,1.5301119,0.9743609,13.467979
0.19773954,0.015180005,-0.14234585,33.7551173,-84.3877951,0.2820676,-0.82164913,5.5748773
0.152599,0.6595313,-0.18375796,33.7551173,-84.3877951,-0.78990906,0.30422577,1.2702025
-0.008255793,-0.6388918,-0.3290333,33.7551173,-84.3877951,-5.6868663,-0.11618071,9.71127
-0.44528016,0.60493654,-0.8946882,33.7551173,-84.3877951,-1.2330726,0.87075645,9.277089
0.0013315794,0,0.0013315794,33.7551173,-84.3877951,-1.2684059,0.8815361,9.578919
0.0010652635,7.99E-04,0.0010652635,33.7551173,-84.3877951,-1.267807,0.8827338,9.5849085
0.0013315794,3.99E-04,9.32E-04,33.7551173,-84.3877951,-1.2642138,0.8827338,9.583112
0.0011984215,0.0010652635,0.0011984215,33.7551173,-84.3877951,-1.2648127,0.8803384,9.580716
0.0010652635,5.33E-04,0.0014647373,33.7551173,-84.3877951,-1.2636149,0.88872254,9.5783205
7.99E-04,0.0010652635,0.0014647373,33.7551173,-84.3877951,-1.2654115,0.8893214,9.575926
0.0010652635,9.32E-04,0.0010652635,33.7551173,-84.3877951,-1.2600217,0.88692594,9.577124
6.66E-04,6.66E-04,9.32E-04,33.7551173,-84.3877951,-1.2600217,0.88692594,9.580117
0.0011984215,7.99E-04,0.0011984215,33.7551173,-84.3877951,-1.2630161,0.8899203,9.572931
6.66E-04,6.66E-04,0.0010652635,33.7551173,-84.3877951,-1.2570274,0.8833327,9.5783205
0.0035952644,-0.018375795,6.66E-04,33.7551173,-84.3877951,-0.82404464,0.82883555,10.353258
0.013448952,-0.98004246,-0.22969745,33.7551173,-84.3877951,1.8337388,1.047423,12.070217
0.038482644,-0.055793177,-0.85087925,33.7551173,-84.3877951,-0.17187558,2.2679193,6.196504
-0.33968592,0.74102396,0.34980592,33.7551173,-84.3877951,-0.66654193,0.799491,1.3246996
-0.67324656,0.5310339,0.6591318,33.7551173,-84.3877951,-1.6989932,1.0605981,22.795374
0.6936197,-0.47231123,0.17976321,33.7551173,-84.3877951,2.3230152,1.3923719,9.167497
0.032490537,1.1791135,0.38882118,33.7551173,-84.3877951,0.24074559,1.2606206,9.70588
0.0062584234,-0.0018642112,-1.33E-04,33.7551173,-84.3877951,0.2269716,1.272598,9.639405
0.0010652635,0.0014647373,0.0011984215,33.7551173,-84.3877951,0.22996594,1.2737957,9.649587
0.0014647373,0.0015978953,0.0014647373,33.7551173,-84.3877951,0.2305648,1.2743946,9.637011
0.0017310532,0.0015978953,0.0014647373,33.7551173,-84.3877951,0.2305648,1.2737957,9.640603
0.0010652635,0.0017310532,0.0010652635,33.7551173,-84.3877951,0.22457612,1.2761912,9.653778
0.0014647373,0.0014647373,0.0013315794,33.7551173,-84.3877951,0.2269716,1.2702025,9.646592
0.0011984215,0.0015978953,0.0010652635,33.7551173,-84.3877951,0.31680202,1.2510387,9.156117
0.047404226,0.0762995,-0.01038632,33.7551173,-84.3877951,1.5163379,0.5347906,13.633267
-0.104262665,-0.2675143,1.9117485,33.7551173,-84.3877951,1.5648464,-0.9749598,7.982932
-0.023968428,1.0005487,0.20519638,33.7551173,-84.3877951,-1.8714676,-2.1463487,4.557398
0.06644581,-1.33E-04,-0.11851057,33.7551173,-84.3877951,0.080248535,0.094022535,0.5952764
1.4149363,0.5265065,0.19294585,33.7551173,-84.3877951,-4.176517,1.0857507,7.955983
0.047404226,0.0077231606,0.023968428,33.7551173,-84.3877951,-0.22397724,0.98514056,9.654377
-0.020373166,0.10998846,0.0077231606,33.7551173,-84.3877951,-0.33955908,1.2737957,12.064828
2.4563646,-2.567152,-0.64222074,33.7551173,-84.3877951,3.698619,5.8635325,11.577947
-1.3330442,2.1975055,0.6961497,33.7551173,-84.3877951,-2.0475352,0.48867762,7.6559496
-0.21824586,0.08828372,-0.6552702,33.7551173,-84.3877951,-0.33776248,0.079050794,0.5575476
0.6438186,-0.509196,0.0077231606,33.7551173,-84.3877951,-1.3558408,4.268144,15.116668
-0.22184113,-1.9580876,-1.0985531,33.7551173,-84.3877951,-0.34854212,0.63060975,10.492196
-0.009454214,-0.0062584234,9.32E-04,33.7551173,-84.3877951,-0.6234233,0.560542,9.89153
-0.3235738,-0.7032071,-0.114116356,33.7551173,-84.3877951,1.0084965,-0.06587566,11.530636
-0.14767216,0.66565657,0.98257244,33.7551173,-84.3877951,0.20720889,-0.29164952,11.563574
-0.4435491,0.6841655,0.26844642,33.7551173,-84.3877951,-2.8182805,-1.3175132,5.457499
-0.08761793,0.12689951,-0.04540686,33.7551173,-84.3877951,-0.2030168,-0.2425422,0.70127636
0.013448952,0.02077264,0.015046847,33.7550918,-84.3877649,-0.4198076,2.8721788,9.3405695
-0.017976321,0.016511586,0.0074568447,33.7550918,-84.3877649,-0.53778493,2.7739642,9.330389
-0.08788424,0.04340949,0.0661795,33.7550918,-84.3877649,-0.5737171,2.5799303,9.43579
6.66E-04,-0.0035952644,0.06657897,33.7550918,-84.3877649,-1.4798069,3.4435005,9.463338
0.061119493,0.79428715,1.2463583,33.7550918,-84.3877649,-1.7061796,5.057454,8.789011
-0.37004593,0.78656393,1.6917716,33.7550918,-84.3877649,0.6904967,3.4159524,9.442976
0.16964322,-0.28162906,-0.0038615803,33.7550918,-84.3877649,0.11318636,2.6967099,5.667702
-0.4179828,0.25020376,-0.75806814,33.7550918,-84.3877649,-0.008384175,-0.11198862,0.52760416
0.040346857,0.029960537,-0.38895434,33.7550918,-84.3877649,1.1953439,-1.5594566,8.496163
0.04141212,-0.0956074,-9.32E-04,33.7550918,-84.3877649,-0.020960437,-0.28625968,9.754389
3.99E-04,-7.99E-04,0,33.7550918,-84.3877649,-0.021559307,-0.294045,9.757383
0,-7.99E-04,3.99E-04,33.7550918,-84.3877649,-0.022158176,-0.29344612,9.757383
1.33E-04,-3.99E-04,1.33E-04,33.7550918,-84.3877649,-0.013774002,-0.29045177,9.759778
0,-3.99E-04,-1.33E-04,33.7550918,-84.3877649,-0.014971741,-0.28985292,9.761575
-1.33E-04,0,-3.99E-04,33.7550918,-84.3877649,-0.013774002,-0.29105064,9.762174
0.065247394,0.14980268,0.013448952,33.7550918,-84.3877649,0,-0.95160383,10.010106
-2.9543753,1.0514151,0.28043061,33.7550918,-84.3877649,-4.471161,-7.172063,7.536774
0.615456,-0.4371575,0.7034734,33.7550918,-84.3877649,-3.5716586,-3.555489,4.750833
-0.9199882,-0.87990767,1.1130673,33.7550918,-84.3877649,-3.5812404,-1.5223266,6.688775
0.18029585,0.2482064,-0.06018739,33.7550918,-84.3877649,-5.3317366,-3.0099187,14.687278
1.6812521,0.40852857,-0.8008118,33.7550918,-84.3877649,-4.424449,-12.063031,2.3403826
-6.2341886,1.9351844,-13.631246,33.7550918,-84.3877649,-16.31261,-10.508965,7.910469
1.35901,-4.1221704,-0.45753068,33.7550918,-84.3877649,-0.6354007,0.27128795,9.096829
-5.33E-04,-0.002130527,-0.0029294747,33.7550918,-84.3877649,-0.3335704,0.16828237,9.752592
0.023302639,0.07084002,0.007190529,33.7550918,-84.3877649,-0.7653554,0.12935585,9.882546
-2.6276057,1.4002889,0.7046718,33.7550918,-84.3877649,-7.5188084,-6.900775,6.101883
-2.1876519,-1.3359736,2.6921873,33.7550918,-84.3877649,-0.35812405,-2.5338175,8.947112
0.1351553,-1.4672674,0.25273377,33.7550918,-84.3877649,1.6942022,-1.9601003,4.8801885
-4.2910147,0.53742546,-6.394644,33.7550918,-84.3877649,-1.942733,-2.7362354,0.07126549
2.2820609,0.3415501,-1.4295837,33.7550918,-84.3877649,0.78751355,5.627578,9.646592
0.007856319,-0.0015978953,0.002396843,33.7550918,-84.3877649,0.4575364,5.145488,8.3632145
-3.99E-04,-2.66E-04,-2.66E-04,33.7550918,-84.3877649,0.46592057,5.141895,8.372197
-3.99E-04,0,-2.66E-04,33.7550918,-84.3877649,0.20361568,5.129318,8.1979265
1.0616683,-0.5348954,-0.21491691,33.7550918,-84.3877649,3.362054,8.910582,5.383838
0.08428898,-1.233442,0.8231824,33.7550918,-84.3877649,6.417487,4.717296,9.845417
-0.29361326,2.058755,0.28056377,33.7550918,-84.3877649,0.13294905,-0.11618071,-0.07066662
2.0632823,0.7926892,-0.3725759,33.7550918,-84.3877649,-8.766852,12.05824,0.24014673
0.80307555,-0.23662166,3.7269576,33.7550918,-84.3877649,11.206648,0.4952652,1.3606318
4.8872957,-7.044987,-0.6619281,33.7550918,-84.3877649,-0.32219186,-8.24404,-7.9272375
-0.11438267,-0.19081533,-0.2810964,33.7550918,-84.3877649,0.15450837,-5.4143806,-8.170379
-0.0070573706,-0.017976321,-0.032623697,33.7550918,-84.3877649,0.46532172,-6.1485944,-8.06378
2.0558255,1.266332,-0.89455503,33.7550918,-84.3877649,2.2080324,-8.594977,-0.9246547
0.15233268,2.7009757,0.98350453,33.7550918,-84.3877649,2.9015234,-7.9679604,5.412584
1.5233269,0.5910881,0.9633977,33.7550918,-84.3877649,6.2815437,-5.0915895,10.432908
0.7572692,-0.21092218,-1.438372,33.7550918,-84.3877649,1.7145637,-7.0169554,0.8012876
4.275435,2.73573,-10.882067,33.7550918,-84.3877649,-3.786054,-6.88221,0.54497135
-4.3710427,2.2427793,-10.731198,33.7550918,-84.3877649,-4.464573,-5.3029904,-0.57251936
0.052730545,1.2743214,-1.0394309,33.7550918,-84.3877649,1.8888348,-0.36650822,8.133248
0.0014647373,0.27443853,-0.22517008,33.7550918,-84.3877649,1.5648464,-0.0886327,9.616649
9.32E-04,0.002130527,6.66E-04,33.7550918,-84.3877649,1.5606543,-0.08923157,9.617248
-0.026897904,0.060986336,-0.02463422,33.7550918,-84.3877649,1.1109031,-0.19642924,9.534004
0.0940095,0.44328278,-0.2890859,33.7550918,-84.3877649,0.11258749,0.040723134,9.726242
6.66E-04,5.33E-04,2.66E-04,33.7550918,-84.3877649,0.11618071,0.041322004,9.729236
5.33E-04,7.99E-04,7.99E-04,33.7550918,-84.3877649,0.11498297,0.043717485,9.72205
6.66E-04,6.66E-04,2.66E-04,33.7550918,-84.3877649,0.6635476,0.009581914,9.742412
0.11638004,0.8954871,-0.9269124,33.7550918,-84.3877649,-3.3129468,-0.03533331,9.159711
-0.18389112,1.1299783,0.30599695,33.7550918,-84.3877649,-5.141296,0.06407905,8.184153
-0.023835272,-1.2373036,0.001997369,33.7550918,-84.3877649,-2.1709025,-0.07306209,9.508253
0.06298371,-0.864994,-0.21851218,33.7550918,-84.3877649,-0.46771717,-0.08743497,9.879553
-3.3838096,1.4305158,-0.9390298,33.7550918,-84.3877649,2.163716,-12.278625,7.8020735
0.001997369,-0.5012065,-1.6727301,33.7550918,-84.3877649,2.1607215,-12.056443,-0.24074559
-0.8086682,-0.19654112,0.38442698,33.7550918,-84.3877649,0.7707452,-8.68361,1.6912079
0.30027115,-0.37657064,0.65234077,33.7550918,-84.3877649,1.9601003,-8.659655,0.9012988
0.3938812,-0.115581095,-0.43196437,33.7550918,-84.3877649,0.17606768,-12.924206,0.16828237
-1.5275879,0.4083954,-1.0739188,33.7550918,-84.3877649,0.020960437,-0.25272298,-0.013774002
-0.26724797,6.4906507,-3.340267,33.7550918,-84.3877649,1.7313321,-1.3636261,4.6921434
0.12703268,0.55100757,0.541287,33.7550918,-84.3877649,1.492982,-2.090055,9.369914
0,0.0057257917,9.32E-04,33.7550918,-84.3877649,1.4684284,-2.0924506,9.384287
3.99E-04,0.0031957906,7.99E-04,33.7550918,-84.3877649,1.3779991,-1.6139537,9.211214
-0.46658543,1.0633993,-1.0511488,33.7550918,-84.3877649,0.2838642,-2.3679307,8.850096
0.11917636,0.11837741,-0.58016914,33.7550918,-84.3877649,-0.85518587,-5.434143,11.252162
-0.071505815,1.5026873,-0.5635244,33.7550918,-84.3877649,-5.3041883,-2.494292,7.9398136
0.77138394,0.10399635,0.7751124,33.7550918,-84.3877649,-2.4847102,0.67911816,8.4237
-0.6876276,-0.2716422,0.50200546,33.7550918,-84.3877649,-0.42699406,-1.2612195,14.786091
0.76858765,-1.5345122,-1.3825788,33.7550918,-84.3877649,-0.07246323,-0.16888124,0.15570611
-1.0383656,-1.9226675,-2.074734,33.7550918,-84.3877649,-5.4778605,-8.73152,8.775237
-4.5958133,6.7721467,-7.1994505,33.7550918,-84.3877649,-9.201033,-2.6356254,1.4762137
-0.9178577,1.2913657,-1.3032168,33.7550918,-84.3877649,0.05150279,0.41681325,8.99622
3.99E-04,0.0010652635,5.33E-04,33.7550918,-84.3877649,0.06527679,0.122768275,9.722649
3.99E-04,0.0010652635,3.99E-04,33.7550918,-84.3877649,0.07066662,0.124564886,9.725643
-1.33E-04,0.0010652635,2.66E-04,33.7550918,-84.3877649,0.07006775,0.122169405,9.729835
1.33E-04,0.0010652635,3.99E-04,33.7550918,-84.3877649,-0.28266647,0.49646294,9.905903
0.0033289485,-0.15033531,-4.1374836,33.7550918,-84.3877649,-0.10300558,1.2210952,9.859191
-0.25433168,0.121173725,0.145009,33.7550918,-84.3877649,-3.1015458,-6.0994873,12.016319
0.80427396,1.3792499,0.32637012,33.7550918,-84.3877649,-4.2088556,-1.2899652,9.171089
0.42530647,-0.4612591,1.2499536,33.7550918,-84.3877649,-1.6235356,1.102519,7.727215
-0.2693785,-0.57284546,0.41212383,33.7550918,-84.3877649,-3.8076131,1.5223266,8.514729
-0.24154851,0.35286856,0.6528734,33.7550918,-84.3877649,-1.6133548,-0.04491522,15.439458
0.05432844,-1.4907031,-1.8803233,33.7550918,-84.3877649,-0.022757046,-0.46232736,0.17127672
-2.410292,-0.3644533,-2.2186775,33.7550918,-84.3877649,0.077853054,-9.8226595,9.1291685
0.040879488,2.7277405,0.42184436,33.7550918,-84.3877649,0.8881237,-0.12576263,9.730433
7.99E-04,9.32E-04,3.99E-04,33.7550918,-84.3877649,0.8857282,-0.120971665,9.691507
3.99E-04,9.32E-04,2.66E-04,33.7550918,-84.3877649,0.8881237,-0.11797732,9.689711
0.0010652635,7.99E-04,3.99E-04,33.7550918,-84.3877649,0.7988921,-0.062282443,9.530412
0.11797793,0.07270423,-0.030093694,33.7550918,-84.3877649,-0.21858741,-4.0303926,9.6507845
-2.5321314,1.4891052,0.43968752,33.7550918,-84.3877649,-7.9446044,-7.29004,7.1780515
1.1699257,-0.061119493,1.5450315,33.7550918,-84.3877649,-2.7841449,1.5169368,5.279036
-1.9741997,-1.7717996,0.7299718,33.7550918,-84.3877649,-0.84201074,-1.9840552,11.430625
0.35353434,-0.6724476,-0.47217807,33.7550918,-84.3877649,-0.5641352,-0.35153648,4.938279
0.81159765,3.9931402,-2.3692791,33.7550918,-84.3877649,-0.036531046,-0.17247446,0.47789797
-1.0910962,0.21571587,2.2596903,33.7550918,-84.3877649,-11.344986,-4.3519855,3.8189917
0.38748962,-0.85207766,0.10333056,33.7550918,-84.3877649,-3.4746416,0.0035932178,7.5415654
0.035153694,-0.6749776,-0.011717899,33.7550918,-84.3877649,-0.013175132,0.06767227,9.742412
3.99E-04,1.33E-04,-2.66E-04,33.7550918,-84.3877649,-0.011977393,0.06827114,9.743609
-1.33E-04,0,2.66E-04,33.7550918,-84.3877649,-0.014372871,0.07366096,9.740016
2.66E-04,2.66E-04,-2.66E-04,33.7550918,-84.3877649,-0.013774002,0.06647453,9.742412
-1.33E-04,1.33E-04,-1.33E-04,33.7550918,-84.3877649,-0.0011977393,-2.3781114,9.734626
-0.5077312,3.19872,-2.3214755,33.7550918,-84.3877649,-11.527641,-9.983756,1.5732305
-0.9612672,-0.5375586,0.5546028,33.7550918,-84.3877649,-4.447206,-3.0997493,-0.82164913
-0.45606595,-0.31585065,-0.42663804,33.7550918,-84.3877649,-9.465734,-1.4750159,-1.0043044
-0.47603965,-1.1986878,0.3814975,33.7550918,-84.3877649,-9.110603,-0.7419995,1.644496
-0.53928965,-0.07976161,-0.098403715,33.7550918,-84.3877649,-11.571359,-2.3912864,2.6787438
-0.8155924,-1.0820414,0.7211834,33.7550918,-84.3877649,-5.829397,-1.6983943,1.4953774
0.050466858,-6.6475105,-1.8221333,33.7550918,-84.3877649,-0.61623687,0.24493769,0.028146872
0.44394857,-5.161202,-0.11624688,33.7550918,-84.3877649,-2.4499757,-1.3025415,-8.932739
0.0041278964,-0.038482644,0.08974845,33.7550918,-84.3877649,0.34554777,-0.18984167,-9.807089
-5.33E-04,-9.32E-04,0,33.7550918,-84.3877649,0.34075683,-0.18505071,-9.812479
-0.041145805,0.0762995,-0.009321056,33.7550918,-84.3877649,0.47430477,0.106598794,-9.784332
0.26551694,0.88842976,-0.17417058,33.7550918,-84.3877649,5.25568,-6.6720066,-6.3773627
2.4664845,-0.6514087,-0.06697845,33.7550918,-84.3877649,7.561328,-7.0079722,-3.320732
0.35673013,-0.2364885,-1.1716567,33.7550918,-84.3877649,7.805068,-2.4511733,-3.127896
0.17643428,-0.52570754,-0.0122505305,33.7550918,-84.3877649,8.130254,-2.8380432,-9.910094
-0.7586008,-1.8813885,0.81093186,33.7550918,-84.3877649,0.4102257,-0.60485834,-1.1845641
2.4680824,1.1431609,1.5120084,33.7550918,-84.3877649,-8.1320505,-15.516712,9.76397
9.820664,-18.3971,-11.196186,33.7550918,-84.3877649,-19.603998,-9.141146,-0.67971706
2.1823256,6.6264715,-1.2855067,33.7550918,-84.3877649,-3.9812853,-2.094846,11.370139
0.22809955,0.16165374,0.06471476,33.7550918,-84.3877649,0.08923157,0.19822586,9.725643
-6.66E-04,5.33E-04,5.33E-04,33.7550918,-84.3877649,0.08743497,0.19822586,9.730433
-0.0011984215,1.33E-04,3.99E-04,33.7550918,-84.3877649,0.08444062,0.2012202,9.721451
-5.33E-04,3.99E-04,6.66E-04,33.7550918,-84.3877649,0.08743497,0.19822586,9.719055
-7.99E-04,5.33E-04,2.66E-04,33.7550918,-84.3877649,0.08264401,0.20181906,9.719055
-5.33E-04,7.99E-04,7.99E-04,33.7550918,-84.3877649,0.08503949,0.19762698,9.721451
-2.66E-04,1.33E-04,5.33E-04,33.7550918,-84.3877649,0.0868361,0.20181906,9.721451
-0.0018642112,-0.033156328,-0.39121804,33.7550918,-84.3877649,-2.4685407,1.0396377,13.196093
2.2262676,0.5407544,-2.9410594,33.7550918,-84.3877649,-6.7564473,4.5645843,7.12595
-1.0365014,0.47337648,-0.19560902,33.7550918,-84.3877649,-4.3753414,1.8355354,5.598832
0.18548901,0.21265323,-0.6933534,33.7550918,-84.3877649,-0.7503837,2.7967212,12.522364
0.57257915,-1.1944268,0.54528177,33.7550918,-84.3877649,0.108994275,-0.0886327,-0.20421454
1.4118737,1.9202707,1.478852,33.7550918,-84.3877649,2.8033087,12.745144,0.13175131
-1.5671358,3.9782267,-5.4015517,33.7550918,-84.3877649,-4.014822,-2.6835349,-3.2530599
-2.3789997,4.5970116,-0.64368546,33.7550918,-84.3877649,-0.22397724,-2.8266647,-7.218775
-0.002396843,-0.034621064,-0.11265162,33.7550918,-84.3877649,0.2658981,0.024553655,-9.819067
0,-3.99E-04,-5.33E-04,33.7550918,-84.3877649,0.25990942,0.019762699,-9.816072
0,-0.0013315794,0.016112112,33.7550918,-84.3877649,1.2186997,-1.1905528,-10.254445
-0.15739268,6.3810616,4.609928,33.7550918,-84.3877649,9.081259,-9.126174,1.4450724
-0.09880319,2.4510381,1.3671325,33.7550918,-84.3877649,4.659206,-4.836471,2.9566195
-0.91745824,0.34301487,-1.3631378,33.7550918,-84.3877649,6.2851367,-6.5480404,5.329341
0.4486091,-0.41864857,0.30493167,33.7550918,-84.3877649,6.2971144,-7.4385595,2.7769585
0.40386802,-0.2681801,-0.23276009,33.7550918,-84.3877649,1.2953551,-5.504211,2.383501
-0.9190561,0.28122956,0.9554082,33.7550918,-84.3877649,8.41352,-9.371112,4.708912
0.7234471,-1.214933,-1.40202,33.7550918,-84.3877649,1.2492421,-2.5931056,1.1228806
5.9214005,-7.069089,4.8750453,33.7550918,-84.3877649,-1.1294681,-5.389827,-0.10180784
6.722612,-0.6323671,-1.6425031,33.7550918,-84.3877649,-0.3689037,3.275218,-6.219261
0.27297378,0.1712411,0.060986336,33.7550918,-84.3877649,-0.11797732,3.0739977,-9.307033
2.66E-04,-7.99E-04,-0.0014647373,33.7550918,-84.3877649,-0.11258749,3.068608,-9.312423
0,-2.66E-04,-0.0011984215,33.7550918,-84.3877649,-0.11618071,3.0716023,-9.316615
5.33E-04,-3.99E-04,-0.0011984215,33.7550918,-84.3877649,-0.062282443,3.1063368,-9.475914
-0.046605278,0.09787109,-0.05499423,33.7550918,-84.3877649,1.2672081,1.7445072,-10.769473
2.6943178,4.8887606,4.122836,33.7550918,-84.3877649,7.031328,-8.107497,-1.3720104
0.45699805,-0.5024049,0.8013445,33.7550918,-84.3877649,4.8903694,-5.810832,-0.601864
-0.8857666,1.0026793,-0.82517976,33.7550918,-84.3877649,5.797657,-7.8236327,2.1164052
-0.018242639,-0.027031062,-0.023568956,33.7550918,-84.3877649,-0.38028222,4.822697,8.5219145
0.030093694,0.006791055,-0.054861072,33.7550918,-84.3877649,-0.6443837,4.9736123,8.379983
-0.09454214,0.04460791,0.08122634,33.7550918,-84.3877649,-0.6389939,4.787364,8.376988
0.033822116,-0.01744369,-0.015579479,33.7551143,-84.3877888,-0.67013514,2.4649475,9.436389
0.034621064,0.019707374,-0.03821633,33.7551143,-84.3877888,-1.0228693,2.0217838,7.2229667
-0.94076085,-0.11544793,-0.20279954,33.7551143,-84.3877888,-0.48149118,2.0864618,9.908897
0.68749446,-0.5701823,0.5655218,33.7551143,-84.3877888,0.54557025,1.3031403,1.1043156
-0.36258906,1.6180022,0.4548675,33.7551143,-84.3877888,-3.0296814,-0.76236105,19.262642
-1.1358372,-0.6266413,0.11757846,33.7551143,-84.3877888,-0.85279036,-0.49945727,9.566343
0.0037284223,0.004261054,0.0014647373,33.7551143,-84.3877888,-0.76595426,-0.48688102,9.62144
0.0015978953,1.33E-04,7.99E-04,33.7551143,-84.3877888,-0.78392035,-0.3533331,9.425011
0.105327934,-0.30732852,0.2526006,33.7551143,-84.3877888,-0.6198301,-1.7253435,10.258636
0.15952322,1.2058783,-2.6004415,33.7551143,-84.3877888,1.0767676,-1.6043718,8.77344
0.13062795,0.38748962,0.0122505305,33.7551143,-84.3877888,0.49945727,-1.3336827,10.058615
0.3849596,-1.0507493,-0.33582434,33.7551143,-84.3877888,2.7895348,-0.5575476,9.236965
0.041278962,-0.1073253,-0.17776585,33.7551143,-84.3877888,2.4553654,0.043717485,9.305836
-0.27590325,1.2295804,0.053396333,33.7551143,-84.3877888,-0.25272298,-0.5994685,9.337575
0.025433166,0.051931597,0.052597385,33.7551143,-84.3877888,-0.45633867,-0.11857619,9.887338
0.07616634,-0.12610057,1.052214,33.7551143,-84.3877888,0.061084703,-0.37189806,9.693903
-0.06005423,-0.07696529,0.6005423,33.7551143,-84.3877888,0.08721845,0.05832318,-0.015046847
0.8204514,5.3940187,8.191937,33.7551143,-84.3877888,0.70067745,5.7084255,7.988921
-0.033955276,0.022503693,-0.010785793,33.7551143,-84.3877888,1.8546993,6.399521,9.511248
-0.2713759,-0.17710006,-0.5154544,33.7551143,-84.3877888,0.5389827,5.4371376,8.230865
0.083223715,-0.16751269,0.1583248,33.7551143,-84.3877888,2.2667215,6.1539845,8.3105135
0.36738276,-0.62890494,-0.35406697,33.7551143,-84.3877888,0.30559748,0.49974176,-0.07084002
2.6356254,4.7843695,7.5086274,33.7551143,-84.3877888,0.11677951,-0.9587372,0.06511423
1.8978179,5.636561,7.3068085,33.7551143,-84.3877888,3.4746416,6.440244,6.5522327
0.25606272,0.053928968,0.016777901,33.7551143,-84.3877888,2.6673653,6.29412,6.7672267
-0.069641605,-0.22876534,-0.139949,33.7551143,-84.3877888,2.783546,5.6431484,7.546356
0.006524739,0.09267793,-0.030759484,33.7551143,-84.3877888,3.0105176,5.783284,7.597859
-0.026098955,-0.02463422,-0.012383688,33.7551143,-84.3877888,3.018303,5.738369,7.4158025
0.055393703,0.006657897,0.020240007,33.7551143,-84.3877888,3.10993,5.6856685,7.5092263
0.0025300009,0.08428898,0.01877527,33.7551143,-84.3877888,2.751207,5.7749,7.4469438
-0.026365273,-0.023568956,0.026232114,33.7551143,-84.3877888,2.7943258,5.695849,7.6343904
0.004394212,0.020106848,7.99E-04,33.7551143,-84.3877888,2.6440094,5.5976343,7.605644
-0.05060002,0.03928159,0.017576847,33.7551143,-84.3877888,2.4110491,5.5581093,7.4900627
-0.0122505305,0.06018739,0.020373166,33.7551143,-84.3877888,2.3176255,5.443126,7.914062
0.027031062,0.03954791,0.030093694,33.7551143,-84.3877888,2.1170042,5.3305387,7.9877234
-0.13409005,0.07097318,0.09733845,33.7551143,-84.3877888,2.0565183,5.270053,8.043418
0.05752423,0.25952482,0.1307611,33.7551143,-84.3877888,1.8678744,5.2976007,8.1386385
-0.19933744,0.08202529,0.104262665,33.7551143,-84.3877888,1.9379421,5.059251,8.058989
-0.0034621065,0.11677951,-0.0018642112,33.7551143,-84.3877888,1.0456264,5.46229,7.6451697
-0.17057532,0.07896266,0.018508954,33.7551143,-84.3877888,1.9151851,4.505895,8.263803
0.009587372,0.13249215,0.04447475,33.7551143,-84.3877888,1.8085864,3.6806529,8.444062
0.013049478,0.2155827,1.2534157,33.7551143,-84.3877888,-0.24620903,0.45540017,-0.016378427
0.26889247,2.7985177,7.827825,33.7551143,-84.3877888,-0.053898267,1.6977954,9.338773
-0.067777395,-0.057923704,0.09347688,33.7551143,-84.3877888,0.36231613,1.8588914,9.681926
0.16737953,-0.43236384,0.09161267,33.7551143,-84.3877888,2.999738,1.2702025,9.199836
0.3261038,0.3932154,0.2760364,33.7551143,-84.3877888,1.0438298,3.5219524,8.744096
0.45886227,0.2589922,-0.07683213,33.7551143,-84.3877888,0.8282367,3.615975,8.637497
-0.18881796,0.2514022,0.033289485,33.7551143,-84.3877888,0.4515477,2.5805292,9.82805
0.055393703,0.13888372,-0.06724476,33.7551143,-84.3877888,0.4755025,3.2350938,8.699181
-0.015845794,0.05233107,0.098670036,33.7551143,-84.3877888,-0.4635251,3.1159186,9.541191
-0.07616634,0.22770008,-0.16618112,33.7551143,-84.3877888,-1.2492421,2.917094,9.198638
-0.022237375,0.23009692,0.16977638,33.7551143,-84.3877888,0.43717483,2.9458396,9.116592
0.14540847,-0.2659164,0.16871111,33.7551143,-84.3877888,0.70247406,2.7128794,9.8544
-0.02463422,0.20759323,-0.06804371,33.7551143,-84.3877888,-1.235468,3.532133,8.456638
0.5030707,0.1934785,-0.13728584,33.7551143,-84.3877888,-1.7451061,4.4292397,8.245836
-0.05499423,0.123703726,-0.04673844,33.7551143,-84.3877888,-0.08204514,3.2368903,9.287869
-0.28535748,-0.41625172,0.08309056,33.7551143,-84.3877888,0.26170602,2.663772,10.134072
0.33649012,-0.13369057,-0.5536707,33.7551143,-84.3877888,0.1419321,3.3375006,8.539881
0.0058589494,-0.17909743,-0.30186906,33.7551143,-84.3877888,-1.1396489,3.35367,9.295654
-0.16724637,0.44980752,0.04700475,33.7551143,-84.3877888,-1.2234907,4.1244154,8.81596
0.22836587,-0.0142479,0.4026696,33.7551143,-84.3877888,-0.5551522,4.21724,9.217202
-0.23116219,-0.16231953,0.10306425,33.7551143,-84.3877888,0.7593667,2.6032863,8.733315
-0.21132165,-0.30146956,-0.030626327,33.7551143,-84.3877888,0.46711832,2.9805741,8.604559
0.11731215,0.23995061,-0.08588687,33.7551143,-84.3877888,-0.16109593,2.5505857,8.986039
0.24141535,-0.22303955,-0.19174743,33.7551143,-84.3877888,0.15390949,3.1494553,9.772954
-0.12463583,0.34234905,0.115980566,33.7551143,-84.3877888,-1.6468915,3.1189132,10.004716
0.16658059,0.33662328,0.14594111,33.7551143,-84.3877888,-1.5169368,3.3093536,9.252536
-0.09880319,0.21291955,0.43902174,33.7551143,-84.3877888,0.28266647,2.2571397,9.106412
0.20506322,-0.3755054,0.029294748,33.7551143,-84.3877888,0.5982708,3.4099636,9.270502
-0.098004244,-0.06977476,-0.16391742,33.7551143,-84.3877888,-0.5719205,3.4566755,9.546581
0.04340949,0.14367741,-0.27363956,33.7551143,-84.3877888,-0.8012876,2.921286,9.5519705
-0.008522108,0.31558433,-0.123703726,33.7551143,-84.3877888,-1.6678519,2.8865516,9.746004
0.3111901,-0.5660544,-0.0956074,33.7551143,-84.3877888,0.45993188,3.762698,9.195643
0.023435798,0.04460791,-0.14394373,33.7551143,-84.3877888,-0.9983157,3.500393,8.946513
-0.037151065,0.16871111,0.0284958,33.7551143,-84.3877888,0.5731118,-0.119975306,-0.39241645
-0.8833327,3.1991615,8.1649885,33.7551143,-84.3877888,-0.34255344,2.5661564,9.608264
-0.470447,-0.39534593,0.36764908,33.7551143,-84.3877888,-0.500655,2.4733317,9.537598
-0.09587371,0.20146796,0.22596903,33.7551143,-84.3877888,-1.0773665,1.9559082,9.507055
-0.11025477,-0.04540686,-0.045673173,33.7551143,-84.3877888,1.2360669,1.0228693,9.288468
-0.1845569,1.0426266,1.3757879,33.7551143,-84.3877888,0.35752517,1.3983606,9.466931
0.08961529,0.18096164,0.14620742,33.7551143,-84.3877888,0.12703268,-0.17403743,-0.37697014
1.1192874,1.6438972,9.758581,33.7551143,-84.3877888,-0.987536,2.5428004,8.949508
0.1928127,0.27750114,-0.08961529,33.7551143,-84.3877888,-1.4720216,1.455852,9.953813
-0.54528177,0.20572902,-0.06191844,33.7551143,-84.3877888,-0.8803384,2.6062806,9.312423
-0.21664797,-0.06791055,-0.05432844,33.7551143,-84.3877888,3.3518734,3.675263,10.549687
2.2604892,-2.108689,0.1884185,33.7551143,-84.3877888,2.8176816,0.42459857,-8.758469
2.1865866,-4.462655,0.64515024,33.7551143,-84.3877888,-0.71505034,0.21499419,-7.8709435
0.22024323,0.44501385,0.05499423,33.7551143,-84.3877888,-0.9078864,4.377138,8.708762
-0.088416874,-0.031957906,-1.33E-04,33.7551143,-84.3877888,-0.8174571,4.189692,8.875248
-0.0015978953,0.015712637,0.02916159,33.7551143,-84.3877888,-1.5834113,3.0542352,9.245948
0.0014647373,-0.047137912,-0.0011984215,33.7551145,-84.3877615,-1.9636935,2.9242804,8.134446
-0.1123853,0.14274532,0.016911058,33.7551145,-84.3877615,-0.45873415,2.4607553,12.660703
-0.16418374,-0.2580601,0.7651255,33.7551145,-84.3877615,-0.65157014,1.9038066,7.5816894
-1.3511536,-0.26312009,-0.9396956,33.7551145,-84.3877615,-1.2055246,0.18924281,13.826702
0.5824328,0.15246584,0.37523907,33.7551145,-84.3877615,-1.4923831,1.1031178,7.649362
0.8791087,-0.4713791,-1.6994948,33.7551145,-84.3877615,-1.2714002,3.1255007,4.8658156
0.051931597,-0.7358308,-0.94861716,33.7551145,-84.3877615,0.14612418,-0.120971665,0.44855335
-1.7760606,0.40120488,-0.37870118,33.7551145,-84.3877615,-2.9548228,-0.73481303,6.4150915
1.7120117,-0.2801643,-2.0812585,33.7551145,-84.3877615,-1.1144964,-0.6857057,9.575327
-0.0055926335,-0.014514215,-2.66E-04,33.7551145,-84.3877615,-1.1079088,-0.68810123,9.589101
6.66E-04,-2.66E-04,-1.33E-04,33.7551145,-84.3877615,-1.2186997,-0.6407905,9.496875
0.20932429,0.06950845,0.022503693,33.7551145,-84.3877615,-7.933226,-9.126174,11.04615
-2.7803378,-0.88177186,4.4781017,33.7551145,-84.3877615,-1.713366,-0.9683722,4.7137027
-0.7779087,-0.79854816,0.9793767,33.7551145,-84.3877615,-4.740652,-0.7336153,12.361268
-0.18136111,-0.38948697,1.3295821,33.7551145,-84.3877615,-1.38279,0.6599543,7.643972
0.15419689,-1.4530195,-0.21238692,33.7551145,-84.3877615,0.16528802,0.10001123,0.124564886
-0.5263733,-1.0510156,-0.14887057,33.7551145,-84.3877615,-5.1700416,-8.216492,-0.3509376
-0.78683025,5.955622,-0.3390201,33.7551145,-84.3877615,-4.6436353,-0.4078302,-8.66744
-0.07696529,4.7032714,0.3058638,33.7551145,-84.3877615,0.13055357,0.89231575,-9.47831
0.042344224,-0.098004244,-0.0025300009,33.7551145,-84.3877615,0.33057603,0.9779541,-9.469327
0.019574217,-0.02969422,0.12689951,33.7551145,-84.3877615,11.595314,-8.263204,-7.0942097
0.52317756,2.0575564,0.5490102,33.7551145,-84.3877615,8.762661,-0.5551522,-3.5962121
0.072970554,-2.223205,-1.4440979,33.7551145,-84.3877615,1.7001909,0.23176254,-6.255792
0.7803055,-1.3156004,0.69388604,33.7551145,-84.3877615,0.17427106,-0.45334432,-0.18864393
3.0312073,0.10865688,0.76925343,33.7551145,-84.3877615,-12.9260025,-10.276004,10.402366
2.6297362,-1.5880415,0.5996102,33.7551145,-84.3877615,-1.6163491,-2.9362578,9.025564
-0.0018642112,-0.015180005,0.001997369,33.7551145,-84.3877615,-1.6013774,-2.9129019,9.056705
0.001997369,-1.33E-04,3.99E-04,33.7551145,-84.3877615,-1.6091627,-2.9057155,9.065688
0.0013315794,0,2.66E-04,33.7551145,-84.3877615,-1.6043718,-2.9069133,9.0597
0.0010652635,7.99E-04,-1.33E-04,33.7551145,-84.3877615,-1.6049706,-2.9045177,9.063293
7.99E-04,-1.33E-04,3.99E-04,33.7551145,-84.3877615,-1.6061684,-2.9051166,9.065688
9.32E-04,2.66E-04,-1.33E-04,33.7551145,-84.3877615,-1.607965,-2.9045177,9.060299
0.0013315794,0,6.66E-04,33.7551145,-84.3877615,-1.6055695,-2.903919,9.061497
9.32E-04,6.66E-04,1.33E-04,33.7551145,-84.3877615,-1.6067672,-2.9045177,9.056107
0.0014647373,5.33E-04,2.66E-04,33.7551145,-84.3877615,-1.6037729,-2.9051166,9.060898
7.99E-04,3.99E-04,5.33E-04,33.7551145,-84.3877615,-1.6043718,-2.903919,9.059101
0.0013315794,1.33E-04,3.99E-04,33.7551145,-84.3877615,-1.6037729,-2.9027212,9.063293
0.0013315794,1.33E-04,1.33E-04,33.7551145,-84.3877615,-1.603174,-2.9003255,9.063293
0.0010652635,0,2.66E-04,33.7551145,-84.3877615,0.7653554,-4.3621664,14.130329
-0.5866939,-1.0267808,-1.5088127,33.7551145,-84.3877615,2.6799417,-4.732867,9.651383
0.6452834,-0.5464802,2.4734087,33.7551145,-84.3877615,0.60126513,-2.2769024,3.9770932
0.10026793,0.5736444,-0.48442858,33.7551145,-84.3877615,-0.2742823,0.08384175,0.4755025
0.28322694,3.8803556,-0.57803863,33.7551145,-84.3877615,-14.282442,-11.801924,0.6491747
-2.8306715,-10.463818,2.8692873,33.7551145,-84.3877615,-2.7224615,-4.0034437,11.14197
0.17057532,-0.068576336,-0.63250023,33.7551145,-84.3877615,-0.9563948,-2.6062806,9.240559
7.99E-04,-0.0038615803,-1.33E-04,33.7551145,-84.3877615,-0.86476773,-2.5116591,9.272299
9.32E-04,-5.33E-04,0,33.7551145,-84.3877615,-1.1606094,-2.2313883,9.191451
0.34754223,0.05819002,0.11052109,33.7551145,-84.3877615,-8.375791,-9.29266,10.335891
-1.6775237,1.5233269,0.50067383,33.7551145,-84.3877615,-8.021859,-1.3612307,6.08212
-0.03036001,-1.8592843,2.644916,33.7551145,-84.3877615,0.43298274,1.217502,2.9105065
-0.35872748,-1.2138678,0.152599,33.7551145,-84.3877615,0.17786428,0.079050794,0.26110715
0.107857935,-0.13209268,-0.1316932,33.7551145,-84.3877615,-3.4854212,2.4373994,5.338324
-0.026098955,-0.14287847,-1.3114725,33.7551145,-84.3877615,-0.86656433,0.6958865,9.412434
-0.002130527,0.007323687,0,33.7551145,-84.3877615,-0.89590895,0.6767227,9.632219
3.99E-04,5.33E-04,3.99E-04,33.7551145,-84.3877615,-0.9030954,0.6767227,9.629824
7.99E-04,1.33E-04,-1.33E-04,33.7551145,-84.3877615,-0.90010107,0.6731295,9.630423
0.007190529,-0.00519316,9.32E-04,33.7551145,-84.3877615,-3.5752518,0.5305985,12.891867
-1.0484856,1.9793928,-0.54288495,33.7551145,-84.3877615,-4.3142567,0.09881349,7.9290338
-0.4711128,-3.0278785,1.2403662,33.7551145,-84.3877615,2.6068795,2.1613204,0.7557735
0.12756531,0.38309538,-0.5826991,33.7551145,-84.3877615,0.16468915,0.014971741,0.4521466
-0.2780338,0.66459125,-1.1008167,33.7551145,-84.3877615,-3.133885,-0.35752517,8.718943
-1.567269,-1.0054756,-0.86512715,33.7551145,-84.3877615,-1.373807,0.56892616,9.62144
0.122238986,-0.1307611,-0.43582594,33.7551145,-84.3877615,-8.6357,-5.6072164,12.116929
-2.9063053,1.4345105,0.7905587,33.7551145,-84.3877615,-1.8672755,-2.6386197,5.6623125
0.32570434,-2.637992,0.07070687,33.7551145,-84.3877615,3.445896,2.4188344,2.7308455
0.31638327,0.09893635,0.076698974,33.7551145,-84.3877615,0.19223715,0.053299397,0.2838642
0.24767376,0.14940321,-0.7137266,33.7551145,-84.3877615,-1.3666205,0.6078527,6.904967
0.02583264,-0.5239765,-1.1478214,33.7551145,-84.3877615,-0.67732155,0.39465508,9.665157
0.023435798,0.022503693,-1.33E-04,33.7551145,-84.3877615,-0.6132425,-0.45334432,10.064004
-0.7997466,1.8149427,0.33169642,33.7551145,-84.3877615,-9.814875,-3.5429127,10.927574
-0.073370025,-2.078329,2.8237474,33.7551145,-84.3877615,0.6365984,-0.97196543,7.0259385
0.43169805,-1.2395673,-1.2128025,33.7551145,-84.3877615,4.033986,3.1524498,5.3029904
-0.018908428,0.3324954,0.36551854,33.7551145,-84.3877615,0.18744619,-0.31440654,0.47190928
-2.524275,0.31451905,0.24394535,33.7551145,-84.3877615,0.0059886966,-1.0408354,8.5877905
0.2957438,0.19254638,0.056725282,33.7551145,-84.3877615,0.43837258,-1.9241681,9.496276
0.0014647373,3.99E-04,2.66E-04,33.7551145,-84.3877615,0.4359771,-1.919976,9.501666
0.0013315794,6.66E-04,1.33E-04,33.7551145,-84.3877615,0.36111838,-1.8660778,9.360931
0.20306586,0.28482485,0.0070573706,33.7551145,-84.3877615,-0.8102706,-1.0605981,9.919677
-0.8022766,0.7000113,-0.44115224,33.7551145,-84.3877615,-4.4801435,-3.8848674,12.575664
-0.52171284,-0.9934914,1.6223963,33.7551145,-84.3877615,-1.2827787,-2.288281,7.3894525
0.46751752,-1.2962925,-1.0088046,33.7551145,-84.3877615,4.538234,1.6462927,2.8566082
-0.17243953,0.37870118,-0.11278477,33.7551145,-84.3877615,0.022158176,-0.40363812,0.56712955
-2.2916481,1.6358453,0.015712637,33.7551145,-84.3877615,-0.7707452,-0.601864,8.352435
0.48323017,-0.99855137,-0.19987006,33.7551145,-84.3877615,-0.2784744,-0.52760416,9.528016
0.123304255,0.25153536,0.03488738,33.7551145,-84.3877615,0.25092638,-0.28625968,10.420332
-0.47923544,0.41531962,-0.47630596,33.7551145,-84.3877615,-4.1040535,-2.6146648,12.506793
0.035020538,-0.7651255,0.92291766,33.7551145,-84.3877615,0.638395,-1.27679,7.299622
-0.36991277,-0.752875,-0.60453707,33.7551145,-84.3877615,4.590336,0.17486994,5.4371376
0.36525223,-0.094275825,-0.23329271,33.7551145,-84.3877615,-0.055694874,-0.17307332,0.2269716
-1.2812457,2.4379888,-0.56405705,33.7551145,-84.3877615,-13.711121,-8.175169,13.47816
2.9674246,4.988096,-0.86512715,33.7551145,-84.3877615,0.50724256,-0.45633867,-11.29528
-0.12796478,0.538757,0.739426,33.7551145,-84.3877615,0.4060336,0.11498297,-9.722649
-0.08868319,-0.006657897,0.13049479,33.7551145,-84.3877615,0.59048545,0.21439533,-10.215518
0.38429382,0.43995383,0.17763269,33.7551145,-84.3877615,8.404536,-8.826739,-8.426096
2.4198792,0.18495639,-1.1261168,33.7551145,-84.3877615,6.766628,-4.531048,-6.7636337
-0.37883434,-2.7221477,-0.47311017,33.7551145,-84.3877615,-0.5138301,1.3432646,-3.9657147
-1.7663401,-0.5010733,0.29494485,33.7551145,-84.3877615,-2.5140548,2.7829473,-9.437587
0.7587339,0.2222406,-0.25566325,33.7551145,-84.3877615,0.18804507,0.058689225,-0.44496015
-0.35859433,0.84355557,-0.009853687,33.7551145,-84.3877615,-0.46232736,-7.088221,-1.998428
5.58531,0.7151913,-0.4890891,33.7551145,-84.3877615,0.7162481,-0.37848562,10.094546
0.22543639,-0.25659534,-0.36192328,33.7551145,-84.3877615,0.84919715,-0.80967176,9.617248
-0.0010652635,0.0027963168,-3.99E-04,33.7551145,-84.3877615,0.8485983,-0.80727625,9.645394
-2.66E-04,5.33E-04,-1.33E-04,33.7551145,-84.3877615,0.8390164,-0.8108695,9.622638
-0.009321056,-0.013448952,3.99E-04,33.7551145,-84.3877615,1.1037167,-0.78751355,9.696299
0.040480014,-0.07323687,-0.0940095,33.7551145,-84.3877615,4.930494,-0.6904967,10.429315
-0.43729067,-3.9993987,-2.687793,33.7551145,-84.3877615,13.576974,3.431523,4.1980762
1.8964354,2.5847287,2.4751399,33.7551145,-84.3877615,1.8199648,0.58509564,6.816933
-0.45326963,2.356496,-1.4470273,33.7551145,-84.3877615,-4.1878953,-3.4902122,2.6493993
0.5705818,-0.5603286,0.07909582,33.7551145,-84.3877615,0.13474567,-0.18265525,0.42280197
1.9008296,-0.6411555,0.5655218,33.7551145,-84.3877615,-1.9397388,0.06827114,7.744582
-1.6563516,4.224702,0.6480797,33.7551145,-84.3877615,-0.46711832,0.45873415,9.542389
0.10359688,-0.25819325,-0.008788424,33.7551145,-84.3877615,-0.36590934,0.4850844,9.707677
-9.32E-04,0.0011984215,-1.33E-04,33.7551145,-84.3877615,-0.3653105,0.48149118,9.713666
-2.66E-04,2.66E-04,-1.33E-04,33.7551145,-84.3877615,-0.36051953,0.4790957,9.707078
1.33E-04,3.99E-04,-1.33E-04,33.7551145,-84.3877615,-0.35572857,0.48209006,9.710671
-2.66E-04,1.33E-04,0,33.7551145,-84.3877615,-0.36171725,0.4737059,9.713666
-1.33E-04,2.66E-04,-5.33E-04,33.7551145,-84.3877615,-0.362915,0.48628214,9.717258
-2.66E-04,3.99E-04,-1.33E-04,33.7551145,-84.3877615,-0.36590934,0.47969458,9.711869
2.66E-04,-1.33E-04,-1.33E-04,33.7551145,-84.3877615,-0.36111838,0.4749036,9.713666
1.33E-04,3.99E-04,0,33.7551145,-84.3877615,-0.35572857,0.47670022,9.709474
0,-1.33E-04,1.33E-04,33.7551145,-84.3877615,-0.35752517,0.48089233,9.708875
2.66E-04,-1.33E-04,1.33E-04,33.7551145,-84.3877615,-0.3569263,0.47670022,9.710671
3.99E-04,2.66E-04,1.33E-04,33.7551145,-84.3877615,-0.3551297,0.48209006,9.707677
2.66E-04,-1.33E-04,1.33E-04,33.7551145,-84.3877615,-0.35153648,0.4755025,9.720852
0,-3.99E-04,0,33.7551145,-84.3877615,-0.3551297,0.47969458,9.714863
1.33E-04,-1.33E-04,-1.33E-04,33.7551145,-84.3877615,-0.34674552,0.47610137,9.709474
0,0,1.33E-04,33.7551145,-84.3877615,-0.34973988,0.473107,9.714863
0,-2.66E-04,-1.33E-04,33.7551145,-84.3877615,-0.3527342,0.47969458,9.710671
-2.66E-04,-2.66E-04,1.33E-04,33.7551145,-84.3877615,-0.3509376,0.4790957,9.713666
2.66E-04,2.66E-04,5.33E-04,33.7551145,-84.3877615,-0.35033873,0.47610137,9.713067
2.66E-04,2.66E-04,1.33E-04,33.7551145,-84.3877615,-0.3533331,0.4755025,9.709474
2.66E-04,1.33E-04,3.99E-04,33.7551145,-84.3877615,-0.35153648,0.47789797,9.705281
-1.33E-04,5.33E-04,2.66E-04,33.7551145,-84.3877615,-0.3431523,0.4755025,9.710671
0,-1.33E-04,1.33E-04,33.7551145,-84.3877615,-0.34794325,0.48029345,9.707677
3.99E-04,0,2.66E-04,33.7551145,-84.3877615,-0.34435004,0.473107,9.713067
2.66E-04,-2.66E-04,1.33E-04,33.7551145,-84.3877615,-0.3389602,0.47610137,9.713067
1.33E-04,-2.66E-04,1.33E-04,33.7551145,-84.3877615,-0.34674552,0.4772991,9.709474
-3.99E-04,3.99E-04,-2.66E-04,33.7551145,-84.3877615,-0.34435004,0.47789797,9.707078
-0.019307902,-0.03688475,-5.33E-04,33.7551145,-84.3877615,0.7000786,0.4892765,11.8959465
0.97245246,-0.84328926,-0.08721845,33.7551145,-84.3877615,6.6019387,3.3297153,11.527641
-0.06697845,1.1269157,1.245293,33.7551145,-84.3877615,-0.27368343,1.5870045,6.1084704
-0.7605982,0.7727155,-1.3010862,33.7551145,-84.3877615,-4.5969234,-1.112101,4.3148556
0.25619587,-0.92744505,0.18389112,33.7551145,-84.3877615,0.17307332,-0.09941236,0.50724256
1.6044201,-0.3334275,0.024900535,33.7551145,-84.3877615,-0.7731407,0.5150279,10.926376
0.24301325,-1.332911,-0.52890337,33.7551145,-84.3877615,0.23176254,-0.025751395,9.690908
-0.022770008,0.017177375,-0.007323687,33.7551145,-84.3877615,1.6636598,1.0893439,13.474566
1.0680598,-2.0174758,-0.17749953,33.7551145,-84.3877615,4.8777933,1.4169255,8.921361
0.29081693,2.1772654,0.48749122,33.7551145,-84.3877615,-3.2027547,-1.4726205,3.3333085
-1.3499552,0.4869586,-0.31505167,33.7551145,-84.3877615,-0.3018303,-0.1419321,0.569525
1.6142737,-1.284841,0.73210233,33.7551145,-84.3877615,2.0966425,-6.726504,2.2301905
-3.0465205,-4.35533,-0.34927326,33.7551145,-84.3877615,0.6222255,-0.109593146,10.576636
0.008255793,-0.13635373,-0.008522108,33.7551145,-84.3877615,1.1216829,-0.93423665,11.767189
0.633166,-0.51305753,-0.27310693,33.7551145,-84.3877615,5.682674,0.46172848,12.248082
0.20532954,1.4174663,1.9823222,33.7551145,-84.3877615,-1.561852,0.57970583,6.270165
0.12796478,1.1499519,-0.91386294,33.7551145,-84.3877615,-5.5593066,-0.909683,3.6764607
-0.022770008,-1.1452914,0.3644533,33.7551145,-84.3877615,0.15211289,0.053299397,0.46771717
0.651675,0.90960187,0.64088917,33.7551145,-84.3877615,-0.4988584,4.5448217,8.559644
-0.09853688,0.109455824,-0.008255793,33.7551145,-84.3877615,-0.30602238,4.0447655,8.878841
-0.13036162,-0.028362641,-0.004394212,33.7551145,-84.3877615,-0.6803159,3.4704494,9.074672
-0.050067388,-0.0118510565,0.0011984215,33.7551145,-84.3877615,-0.5982708,3.3225288,9.429801
-0.026365273,0.0018642112,0.071905285,33.7551145,-84.3877615,-0.19283602,3.1961672,9.413033
0.0050600017,-0.0031957906,-0.07070687,33.7551145,-84.3877615,0.9917281,2.4104502,8.998615
0.1535311,-0.40786278,-1.5128074,33.7551145,-84.3877615,-0.528203,4.4214544,9.532806
-0.150069,0.27377272,-0.3713775,33.7551145,-84.3877615,-7.0265374,-0.24553655,7.1822433
-0.71532446,0.071505815,-0.05166528,33.7551145,-84.3877615,-2.4056594,0.014971741,9.301044
0.049667913,-0.82105184,-0.08269108,33.7551145,-84.3877615,0.28865516,0.1814575,9.671145
3.99E-04,-2.66E-04,0.0013315794,33.7551145,-84.3877615,0.28086987,0.18025976,9.655575
1.33E-04,2.66E-04,0.0011984215,33.7551145,-84.3877615,0.28865516,0.17846315,9.671145
3.99E-04,-2.66E-04,0.0011984215,33.7551145,-84.3877615,0.28805628,0.18025976,9.6639595
3.99E-04,0,9.32E-04,33.7551145,-84.3877615,0.28925404,0.17846315,9.670547
-9.32E-04,-3.99E-04,1.33E-04,33.7551145,-84.3877615,-0.19702812,0.35213536,9.701688
-0.32783484,-0.20692743,1.368331,33.7551145,-84.3877615,-7.6517572,-0.6192312,10.580829
0.6628602,0.6846981,2.7284062,33.7551145,-84.3877615,0.48328778,1.217502,9.0698805
-0.12783162,-0.9048082,1.9687401,33.7551145,-84.3877615,3.1542463,-0.8611745,14.8938875
0.082957394,-0.67963815,0.075234234,33.7551145,-84.3877615,2.3535576,0.4970618,4.216042
-0.28043061,0.036085803,0.34314802,33.7551145,-84.3877615,0.19882472,0.20960437,0.04910731
1.0322404,1.4503562,0.023702113,33.7551145,-84.3877615,2.00262,6.2306395,20.141783
-1.3207936,0.10439582,1.5089458,33.7551145,-84.3877615,1.3037392,0.7970955,9.559157
-0.002396843,-0.0033289485,2.66E-04,33.7551145,-84.3877615,1.5139425,0.6749261,9.635214
0.0013315794,0.0139815835,0.006791055,33.7551145,-84.3877615,1.7385186,0.49346858,9.708875
0.054861072,0.10146635,0.067511074,33.7551145,-84.3877615,-0.21499419,-0.17307332,13.370962
-0.031425275,-0.016911058,0.002130527,33.755095,-84.3877694,-0.46472284,3.6716697,9.063892
-0.0544616,0.0010652635,0.026631588,33.755095,-84.3877694,-0.5210166,3.459071,9.10222
-0.08761793,-0.019307902,0.0062584234,33.755095,-84.3877694,-1.061197,2.7637835,8.789011
-0.5760412,0.39774278,-0.12689951,33.755095,-84.3877694,-1.4630386,1.4540554,10.982071
0.50173914,-0.15699321,-0.020240007,33.755095,-84.3877694,-4.4801435,1.4456713,15.742486
0.4894886,0.39308223,-0.22237375,33.755095,-84.3877694,-1.2995471,1.483999,3.482427
-0.31651643,0.14154689,1.183641,33.755095,-84.3877694,0.20780776,0.046112962,0.3569263
-0.58136755,-0.39414752,0.89482135,33.755095,-84.3877694,0.9270502,0.3982483,-2.2661228
-1.3962941,-3.4260206,-1.2668647,33.755095,-84.3877694,-0.3389602,0.91986376,9.733428
0.025433166,0.06032055,6.66E-04,33.755095,-84.3877694,0.54497135,0.91627055,9.505857
-0.05113265,-0.90174556,0.36165696,33.755095,-84.3877694,1.1971405,0.6922933,9.765168
-0.011984214,-0.07723161,0.02143843,33.755095,-84.3877694,0.8917169,0.81985253,9.764569
0.049934227,0.41012645,-0.13275847,33.755095,-84.3877694,-0.8641689,3.179399,9.160909
-0.079628445,0.09241161,0.11251846,33.755095,-84.3877694,-0.7743384,2.888947,9.281281
-0.018908428,0.045673173,0.032091063,33.755095,-84.3877694,0.21499419,3.4021783,8.8123665
-0.085487396,0.15140058,-0.059255283,33.755095,-84.3877694,-0.25811282,3.2380881,9.184864
-0.037017908,0.19853848,-0.08202529,33.755095,-84.3877694,-2.1553319,3.5770483,10.708987
0.61399126,0.023968428,-0.8558061,33.755095,-84.3877694,-2.4924955,3.5656698,8.726728
0.20226692,0.5701823,0.7258439,33.755095,-84.3877694,-0.11318636,3.0015347,4.409477
-0.5524723,-0.21891165,-0.7623292,33.755095,-84.3877694,-0.21379647,0.91207844,1.7241457
-0.62277967,0.5894902,-2.1351876,33.755095,-84.3877694,-7.979938,-3.6495116,8.129655
2.3238723,6.4003696,-1.2277162,33.755095,-84.3877694,-2.1607215,-1.3013437,8.917768
-0.119975306,-0.4093275,0.109722145,33.755095,-84.3877694,-1.4097391,-0.7773328,9.511248
6.66E-04,3.99E-04,1.33E-04,33.755095,-84.3877694,-1.4043493,-0.77493733,9.508253
2.66E-04,-9.32E-04,3.99E-04,33.755095,-84.3877694,-1.4049481,-0.7773328,9.504061
-1.33E-04,-0.0011984215,1.33E-04,33.755095,-84.3877694,-1.4043493,-0.77793163,9.504061
3.99E-04,-9.32E-04,-1.33E-04,33.755095,-84.3877694,-1.4037504,-0.7731407,9.502265
0.0015978953,-0.031292114,0.0010652635,33.755095,-84.3877694,-0.25691506,-0.78032714,11.674365
-0.19840533,-1.6184016,-1.7927053,33.755095,-84.3877694,-0.11258749,-1.0695812,6.9103565
2.7929878,7.99E-04,6.2638826,33.755095,-84.3877694,3.8968446,-1.0300558,7.596661
-0.9454214,1.7230637,0.5563339,33.755095,-84.3877694,-0.61204475,-3.2320995,9.295055
0.026897904,0.02077264,0.004261054,33.755095,-84.3877694,-0.40124264,-2.6062806,9.23996
0.04314317,-0.08668582,-0.03155843,33.755095,-84.3877694,-0.21559307,-2.3787103,9.350751
0.0478037,-0.09773793,0.4926844,33.755095,-84.3877694,-0.4437624,-2.3367894,9.480705
-0.08269108,-0.0029294747,-0.2358227,33.755095,-84.3877694,0.01676835,3.2895908,9.3800955
-0.032756854,0.06404897,0.06697845,33.7551096,-84.3877896,0.029943481,2.9003255,9.157914
-0.15299848,-0.047936857,0.01877527,33.7551096,-84.3877896,-0.1694801,2.7224615,9.541191